{
  "resourceType": "Bundle",
  "type": "transaction",
  "entry": [
    {
      "resource": {
        "resourceType": "Practitioner",
        "id": "ha-prac-2-ext",
        "name": [
          {
            "text": "Dr Welby"
          }
        ],
        "identifier": [
          {
            "system": "https://standards.digital.health.nz/id/hpi-person",
            "value": "hpi-001"
          }
        ],
        "text": {
          "status": "additional",
          "div": "<div xmlns='http://www.w3.org/1999/xhtml'>Dr Welby</div>"
        }
      },
      "fullUrl": "http://home.clinfhir.com:8054/baseR4/Practitioner/ha-prac-2-ext",
      "request": {
        "method": "PUT",
        "url": "Practitioner/ha-prac-2-ext"
      }
    },
    {
      "resource": {
        "resourceType": "Organization",
        "id": "ha-org-2-ext",
        "name": "Waipu Cove MC",
        "identifier": [
          {
            "system": "https://standards.digital.health.nz/id/hpi-organisation",
            "value": "Waipu Cove MC"
          }
        ],
        "text": {
          "status": "additional",
          "div": "<div xmlns='http://www.w3.org/1999/xhtml'>Waipu Cove MC</div>"
        }
      },
      "fullUrl": "http://home.clinfhir.com:8054/baseR4/Organization/ha-org-2-ext",
      "request": {
        "method": "PUT",
        "url": "Organization/ha-org-2-ext"
      }
    },
    {
      "resource": {
        "resourceType": "Patient",
        "id": "ha-patientSample-2",
        "text": {
          "status": "additional",
          "div": "<div xmlns='http://www.w3.org/1999/xhtml'>John Albertus Doe with GP and Practice as referenced resources</div>"
        },
        "identifier": [
          {
            "system": "https://standards.digital.health.nz/id/nhi",
            "value": "WER4568"
          }
        ],
        "name": [
          {
            "family": "Doe",
            "given": [
              "John",
              "Albertus"
            ],
            "text": "John Albertus Doe"
          }
        ],
        "gender": "male",
        "birthDate": "1982-01-01",
        "telecom": [
          {
            "system": "phone",
            "value": "+64 123 4567"
          },
          {
            "system": "email",
            "value": "john.doe@myserver.com"
          }
        ],
        "address": [
          {
            "line": [
              "23 Thule St"
            ],
            "extension": [
              {
                "url": "http://hl7.org.nz/fhir/StructureDefinition/suburb",
                "valueString": "the Cove"
              }
            ],
            "city": "Waipu"
          }
        ],
        "generalPractitioner": [
          {
            "reference": "Practitioner/ha-prac-2-ext",
            "display": "Dr Welby"
          },
          {
            "reference": "Organization/ha-org-2-ext",
            "display": "Waipu Cove MC"
          }
        ],
        "managingOrganization": {
          "reference": "Organization/ha-cmdhb",
          "display": "Counties-Manakau DHB"
        }
      },
      "fullUrl": "http://home.clinfhir.com:8054/baseR4/Patient/ha-patientSample-2",
      "request": {
        "method": "PUT",
        "url": "Patient/ha-patientSample-2"
      }
    },
    {
      "resource": {
        "resourceType": "Practitioner",
        "id": "ha-prac-3-ext",
        "name": [
          {
            "text": "Dr Kildaire"
          }
        ],
        "identifier": [
          {
            "system": "https://standards.digital.health.nz/id/hpi-person",
            "value": "hpi-002"
          }
        ],
        "text": {
          "status": "additional",
          "div": "<div xmlns='http://www.w3.org/1999/xhtml'>Dr Kildaire</div>"
        }
      },
      "fullUrl": "http://home.clinfhir.com:8054/baseR4/Practitioner/ha-prac-3-ext",
      "request": {
        "method": "PUT",
        "url": "Practitioner/ha-prac-3-ext"
      }
    },
    {
      "resource": {
        "resourceType": "Organization",
        "id": "ha-org-3-ext",
        "name": "Waipu MC",
        "identifier": [
          {
            "system": "https://standards.digital.health.nz/id/hpi-organisation",
            "value": "Waipu MC"
          }
        ],
        "text": {
          "status": "additional",
          "div": "<div xmlns='http://www.w3.org/1999/xhtml'>Waipu MC</div>"
        }
      },
      "fullUrl": "http://home.clinfhir.com:8054/baseR4/Organization/ha-org-3-ext",
      "request": {
        "method": "PUT",
        "url": "Organization/ha-org-3-ext"
      }
    },
    {
      "resource": {
        "resourceType": "Patient",
        "id": "ha-patientSample-3",
        "text": {
          "status": "additional",
          "div": "<div xmlns='http://www.w3.org/1999/xhtml'>Mary Doe with GP and Practice as referenced resources</div>"
        },
        "identifier": [
          {
            "system": "https://standards.digital.health.nz/id/nhi",
            "value": "ABC1234"
          }
        ],
        "name": [
          {
            "family": "Doe",
            "given": [
              "Mary"
            ],
            "text": "Mary Doe"
          }
        ],
        "gender": "female",
        "birthDate": "1984-05-23",
        "telecom": [
          {
            "system": "phone",
            "value": "64 123 4568"
          },
          {
            "system": "email",
            "value": "mary.doe@myserver.com"
          }
        ],
        "address": [
          {
            "line": [
              "23 Thule st"
            ],
            "extension": [
              {
                "url": "http://hl7.org.nz/fhir/StructureDefinition/suburb",
                "valueString": "the cove"
              }
            ],
            "city": "Waipu"
          }
        ],
        "generalPractitioner": [
          {
            "reference": "Practitioner/ha-prac-3-ext",
            "display": "Dr Kildaire"
          },
          {
            "reference": "Organization/ha-org-3-ext",
            "display": "Waipu MC"
          }
        ],
        "managingOrganization": {
          "reference": "Organization/ha-cmdhb",
          "display": "Counties-Manakau DHB"
        }
      },
      "fullUrl": "http://home.clinfhir.com:8054/baseR4/Patient/ha-patientSample-3",
      "request": {
        "method": "PUT",
        "url": "Patient/ha-patientSample-3"
      }
    },
    {
      "resource": {
        "resourceType": "Practitioner",
        "id": "ha-prac-4-ext",
        "name": [
          {
            "text": "Dr Anderson"
          }
        ],
        "identifier": [
          {
            "system": "https://standards.digital.health.nz/id/hpi-person",
            "value": "hpi-003"
          }
        ],
        "text": {
          "status": "additional",
          "div": "<div xmlns='http://www.w3.org/1999/xhtml'>Dr Anderson</div>"
        }
      },
      "fullUrl": "http://home.clinfhir.com:8054/baseR4/Practitioner/ha-prac-4-ext",
      "request": {
        "method": "PUT",
        "url": "Practitioner/ha-prac-4-ext"
      }
    },
    {
      "resource": {
        "resourceType": "Organization",
        "id": "ha-org-4-ext",
        "name": "Good Health MC",
        "identifier": [
          {
            "system": "https://standards.digital.health.nz/id/hpi-organisation",
            "value": "Good Health MC"
          }
        ],
        "text": {
          "status": "additional",
          "div": "<div xmlns='http://www.w3.org/1999/xhtml'>Good Health MC</div>"
        }
      },
      "fullUrl": "http://home.clinfhir.com:8054/baseR4/Organization/ha-org-4-ext",
      "request": {
        "method": "PUT",
        "url": "Organization/ha-org-4-ext"
      }
    },
    {
      "resource": {
        "resourceType": "Patient",
        "id": "ha-patientSample-4",
        "text": {
          "status": "additional",
          "div": "<div xmlns='http://www.w3.org/1999/xhtml'>Alex Smith with GP and Practice as referenced resources</div>"
        },
        "identifier": [
          {
            "system": "https://standards.digital.health.nz/id/nhi",
            "value": "YTR8763"
          }
        ],
        "name": [
          {
            "family": "Smith",
            "given": [
              "Alex"
            ],
            "text": "Alex Smith"
          }
        ],
        "gender": "male",
        "birthDate": "2002-02-12",
        "telecom": [
          {
            "system": "phone",
            "value": "123 5674"
          },
          {
            "system": "email",
            "value": "alex.smith@theirserver.com"
          }
        ],
        "address": [
          {
            "line": [
              "Flat1",
              "18 The avenue"
            ],
            "extension": [
              {
                "url": "http://hl7.org.nz/fhir/StructureDefinition/suburb",
                "valueString": "alberton"
              }
            ],
            "city": "New Plymouth"
          }
        ],
        "generalPractitioner": [
          {
            "reference": "Practitioner/ha-prac-4-ext",
            "display": "Dr Anderson"
          },
          {
            "reference": "Organization/ha-org-4-ext",
            "display": "Good Health MC"
          }
        ],
        "managingOrganization": {
          "reference": "Organization/ha-cmdhb",
          "display": "Counties-Manakau DHB"
        }
      },
      "fullUrl": "http://home.clinfhir.com:8054/baseR4/Patient/ha-patientSample-4",
      "request": {
        "method": "PUT",
        "url": "Patient/ha-patientSample-4"
      }
    },
    {
      "resource": {
        "resourceType": "Practitioner",
        "id": "ha-prac-5-ext",
        "name": [
          {
            "text": "Dr Blyth"
          }
        ],
        "identifier": [
          {
            "system": "https://standards.digital.health.nz/id/hpi-person",
            "value": "hpi-004"
          }
        ],
        "text": {
          "status": "additional",
          "div": "<div xmlns='http://www.w3.org/1999/xhtml'>Dr Blyth</div>"
        }
      },
      "fullUrl": "http://home.clinfhir.com:8054/baseR4/Practitioner/ha-prac-5-ext",
      "request": {
        "method": "PUT",
        "url": "Practitioner/ha-prac-5-ext"
      }
    },
    {
      "resource": {
        "resourceType": "Organization",
        "id": "ha-org-5-ext",
        "name": "Mediocre Health MC",
        "identifier": [
          {
            "system": "https://standards.digital.health.nz/id/hpi-organisation",
            "value": "Mediocre Health MC"
          }
        ],
        "text": {
          "status": "additional",
          "div": "<div xmlns='http://www.w3.org/1999/xhtml'>Mediocre Health MC</div>"
        }
      },
      "fullUrl": "http://home.clinfhir.com:8054/baseR4/Organization/ha-org-5-ext",
      "request": {
        "method": "PUT",
        "url": "Organization/ha-org-5-ext"
      }
    },
    {
      "resource": {
        "resourceType": "Patient",
        "id": "ha-patientSample-5",
        "text": {
          "status": "additional",
          "div": "<div xmlns='http://www.w3.org/1999/xhtml'>Alex Smith with GP and Practice as referenced resources</div>"
        },
        "identifier": [
          {
            "system": "https://standards.digital.health.nz/id/nhi",
            "value": "JUT9986"
          }
        ],
        "name": [
          {
            "family": "Smith",
            "given": [
              "Alex"
            ],
            "text": "Alex Smith"
          }
        ],
        "gender": "female",
        "birthDate": "2002-02-12",
        "telecom": [
          {
            "system": "phone",
            "value": "123 5674"
          },
          {
            "system": "email",
            "value": "alexK.smith@theirserver.com"
          }
        ],
        "address": [
          {
            "line": [
              "Flat1",
              "18 The avenue"
            ],
            "extension": [
              {
                "url": "http://hl7.org.nz/fhir/StructureDefinition/suburb",
                "valueString": "alberton"
              }
            ],
            "city": "New Plymouth"
          }
        ],
        "generalPractitioner": [
          {
            "reference": "Practitioner/ha-prac-5-ext",
            "display": "Dr Blyth"
          },
          {
            "reference": "Organization/ha-org-5-ext",
            "display": "Mediocre Health MC"
          }
        ],
        "managingOrganization": {
          "reference": "Organization/ha-cmdhb",
          "display": "Counties-Manakau DHB"
        }
      },
      "fullUrl": "http://home.clinfhir.com:8054/baseR4/Patient/ha-patientSample-5",
      "request": {
        "method": "PUT",
        "url": "Patient/ha-patientSample-5"
      }
    },
    {
      "resource": {
        "resourceType": "Organization",
        "id": "ha-cmdhb",
        "name": "Counties-Manakau DHB",
        "identifier": [
          {
            "system": "https://standards.digital.health.nz/id/hpi-organisation",
            "value": "cmdhb"
          }
        ],
        "text": {
          "status": "additional",
          "div": "<div xmlns='http://www.w3.org/1999/xhtml'>CMDHB</div>"
        }
      },
      "request": {
        "method": "PUT",
        "url": "Organization/ha-cmdhb"
      },
      "fullUrl": "http://home.clinfhir.com:8054/baseR4/Organization/ha-cmdhb"
    },
    {
      "resource": {
        "resourceType": "Organization",
        "id": "ha-adhb",
        "name": "Auckland DHB",
        "identifier": [
          {
            "system": "https://standards.digital.health.nz/id/hpi-organisation",
            "value": "adhb"
          }
        ],
        "text": {
          "status": "additional",
          "div": "<div xmlns='http://www.w3.org/1999/xhtml'>ADHB</div>"
        }
      },
      "request": {
        "method": "PUT",
        "url": "Organization/ha-adhb"
      },
      "fullUrl": "http://home.clinfhir.com:8054/baseR4/Organization/ha-adhb"
    },
    {
      "resource": {
        "resourceType": "Organization",
        "id": "ha-wdhb",
        "name": "Waitemata DHB",
        "identifier": [
          {
            "system": "https://standards.digital.health.nz/id/hpi-organisation",
            "value": "wdhb"
          }
        ],
        "text": {
          "status": "additional",
          "div": "<div xmlns='http://www.w3.org/1999/xhtml'>WHB</div>"
        }
      },
      "request": {
        "method": "PUT",
        "url": "Organization/ha-wdhb"
      },
      "fullUrl": "http://home.clinfhir.com:8054/baseR4/Organization/ha-wdhb"
    }
  ]
}