{
  "resourceType": "Bundle",
  "id": "bundle-patient-external",
  "type": "document",
  "timestamp": "2020-04-10T12:00:00Z",
  "identifier": {
    "system": "http://clinfir.com/NamingSystem/scenarios",
    "value": "patient-externalGP"
  },
  "entry": [
    {
      "fullUrl": "http://example.com/fhir/Composition/comp-external",
      "resource": {
        "resourceType": "Composition",
        "id": "comp-external",
        "text": {
          "div": "<div xmlns=\"http://www.w3.org/1999/xhtml\">Patient with GP</div>",
          "status": "additional"
        },
        "status": "final",
        "type": {
          "coding": [
            {
              "code": "11503-0",
              "system": "http://loinc.org",
              "display": "Medical Records"
            }
          ]
        },
        "date": "2020-05-10",
        "author": [
          {
            "display": "From scenario in IG"
          }
        ],
        "title": "A patient with external links to GP and GP Practice",
        "subject": {
          "reference": "Patient/cPatient"
        }
      }
    },
    {
      "fullUrl": "http://example.com/fhir/Patient/cPatient",
      "resource": {
        "resourceType": "Patient",
        "id": "cPatient",
        "meta": {
          "profile": [
            "http://hl7.org.nz/fhir/northernregion/StructureDefinition/HaPatient"
          ]
        },
        "name": [
          {
            "extension": [
              {
                "url": "http://hl7.org/fhir/StructureDefinition/iso21090-preferred",
                "valueBoolean": true
              }
            ],
            "family": "Doe",
            "given": [
              "John",
              "Albertus"
            ]
          }
        ],
        "text": {
          "div": "<div xmlns=\"http://www.w3.org/1999/xhtml\">John Doe</div>",
          "status": "additional"
        },
        "identifier": [
          {
            "use": "official",
            "system": "https://standards.digital.health.nz/id/nhi",
            "value": "WER4568"
          }
        ],
        "deceasedBoolean": false,
        "gender": "male",
        "birthDate": "1989-12-12",
        "address": [
          {
            "text": "23 Thule St"
          }
        ],
        "generalPractitioner": [
          {
            "reference": "Practitioner/cGP"
          },
          {
            "reference": "Organization/cPractice"
          }
        ],
        "managingOrganization": {
          "reference": "Organization/cmdhb"
        }
      }
    },
    {
      "fullUrl": "http://example.com/fhir/Practitioner/cGP",
      "resource": {
        "resourceType": "Practitioner",
        "id": "cGP",
        "meta": {
          "profile": [
            "http://hl7.org.nz/fhir/northernregion/StructureDefinition/HaPractitioner"
          ]
        },
        "text": {
          "div": "<div xmlns=\"http://www.w3.org/1999/xhtml\">Dr Richard Kildaire</div>",
          "status": "additional"
        },
        "name": [
          {
            "text": "Dr Richard Kildaire"
          }
        ],
        "identifier": [
          {
            "system": "https://standards.digital.health.nz/id/hpi-person",
            "value": "cpn-1"
          }
        ]
      }
    },
    {
      "fullUrl": "http://example.com/fhir/Organization/cPractice",
      "resource": {
        "resourceType": "Organization",
        "id": "cPractice",
        "meta": {
          "profile": [
            "http://hl7.org.nz/fhir/northernregion/StructureDefinition/HaOrganization"
          ]
        },
        "text": {
          "div": "<div xmlns=\"http://www.w3.org/1999/xhtml\">Good Health Medical centre</div>",
          "status": "additional"
        },
        "name": "Good Health Medical centre",
        "identifier": [
          {
            "system": "https://standards.digital.health.nz/id/hpi-organization",
            "value": "org-1"
          }
        ]
      }
    },
    {
      "fullUrl": "http://example.com/fhir/Organization/cmdhb",
      "resource": {
        "resourceType": "Organization",
        "id": "cmdhb",
        "meta": {
          "profile": [
            "http://hl7.org.nz/fhir/northernregion/StructureDefinition/HaOrganization"
          ]
        },
        "text": {
          "div": "<div xmlns=\"http://www.w3.org/1999/xhtml\">Counties Manakau DHB</div>",
          "status": "additional"
        },
        "name": "Counties Manakau DHB",
        "identifier": [
          {
            "system": "https://standards.digital.health.nz/id/hpi-organisation",
            "value": "cmdhb-1"
          }
        ]
      }
    }
  ]
}
