{
  "resourceType": "Bundle",
  "id": "bundle2",
  "type": "searchset",
  "entry": [
    {
      "resource": {
        "resourceType": "Patient",
        "id": "patient2",
        "meta": {
          "profile": [
            "http://hl7.org.nz/fhir/StructureDefinition/NrPatient"
          ]
        },
        "extension": [
          {
            "url": "http://hl7.org.nz/fhir/StructureDefinition/nz-ethnicity",
            "valueCodeableConcept": {
              "coding": [
                {
                  "code": "11111",
                  "system": "https://standards.digital.health.nz/ns/ethnic-group-level-4",
                  "display": "New Zealand European"
                }
              ]
            }
          },
          {
            "url": "http://hl7.org.nz/fhir/StructureDefinition/nz-ethnicity",
            "valueCodeableConcept": {
              "coding": [
                {
                  "code": "12111",
                  "system": "https://standards.digital.health.nz/ns/ethnic-group-level-4",
                  "display": "Celtic"
                }
              ]
            }
          },
          {
            "extension": [
              {
                "url": "country",
                "valueCodeableConcept": {
                  "coding": [
                    {
                      "code": "nz",
                      "system": "urn:iso:std:iso:3166"
                    }
                  ]
                }
              },
              {
                "url": "place-of-birth",
                "valueString": "Palmerston North"
              }
            ],
            "url": "http://hl7.org.nz/fhir/StructureDefinition/birth-place"
          },
          {
            "extension": [
              {
                "url": "status",
                "valueCodeableConcept": {
                  "coding": [
                    {
                      "code": "CIT",
                      "system": "https://standards.digital.health.nz/ns/citizenship-status",
                      "display": "Citizen"
                    }
                  ]
                }
              },
              {
                "url": "source",
                "valueCodeableConcept": {
                  "coding": [
                    {
                      "code": "PPRT",
                      "system": "https://standards.digital.health.nz/ns/info-source",
                      "display": "Passport"
                    }
                  ]
                }
              }
            ],
            "url": "http://hl7.org.nz/fhir/StructureDefinition/citizenship"
          },
          {
            "url": "http://hl7.org.nz/fhir/StructureDefinition/sex-at-birth",
            "valueCodeableConcept": {
              "coding": [
                {
                  "code": "male",
                  "system": "http://hl7.org/fhir/administrative-gender",
                  "display": "Male"
                }
              ]
            }
          },
          {
            "url": "http://hl7.org.nz/fhir/StructureDefinition/nz-residency-status",
            "valueCodeableConcept": {
              "coding": [
                {
                  "code": "Y",
                  "system": "https://standards.digital.health.nz/ns/nz-residency-status",
                  "display": "Yes"
                }
              ]
            }
          },
          {
            "url": "http://hl7.org/fhir/StructureDefinition/patient-interpreterRequired",
            "valueBoolean": true
          }
        ],
        "name": [
          {
            "extension": [
              {
                "url": "http://hl7.org/fhir/StructureDefinition/iso21090-preferred",
                "valueBoolean": true
              }
            ],
            "family": "Doe",
            "given": [
              "John",
              "Albertus"
            ]
          }
        ],
        "telecom": [
          {
            "extension": [
              {
                "url": "http://hl7.org.nz/fhir/StructureDefinition/authorized-by-patient",
                "valueBoolean": true
              },
              {
                "url": "http://hl7.org.nz/fhir/StructureDefinition/validated-by-patient",
                "valueBoolean": true
              }
            ],
            "system": "email",
            "use": "home",
            "rank": 1,
            "period": {
              "start": "2020-01-01"
            },
            "value": "johndoe@erewhon.com"
          },
          {
            "system": "phone",
            "value": "+64 9 000 0000"
          }
        ],
        "address": [
          {
            "extension": [
              {
                "url": "http://hl7.org.nz/fhir/StructureDefinition/building-name",
                "valueString": "The Black building"
              },
              {
                "url": "http://hl7.org.nz/fhir/StructureDefinition/suburb",
                "valueString": "Waipu river"
              },
              {
                "extension": [
                  {
                    "url": "longitude",
                    "valueDecimal": 100
                  },
                  {
                    "url": "latitute",
                    "valueDecimal": 100
                  }
                ],
                "url": "http://hl7.org.nz/fhir/StructureDefinition/nz-geocode"
              },
              {
                "url": "http://hl7.org.nz/fhir/StructureDefinition/domicile-code",
                "valueCodeableConcept": {
                  "coding": [
                    {
                      "code": "0040",
                      "system": "https://standards.digital.health.nz/ns/domicileCode",
                      "display": "Waipu"
                    }
                  ]
                }
              },
              {
                "url": "http://hl7.org.nz/fhir/StructureDefinition/authorized-by-patient",
                "valueBoolean": true
              },
              {
                "url": "http://hl7.org.nz/fhir/StructureDefinition/validated-by-patient",
                "valueBoolean": true
              }
            ],
            "line": [
              "23 Thule St"
            ],
            "city": "Waipu",
            "district": "Northland",
            "postalCode": "0510",
            "country": "New Zealand"
          }
        ],
        "text": {
          "div": "<div xmlns=\"http://www.w3.org/1999/xhtml\">John Doe</div>",
          "status": "additional"
        },
        "identifier": [
          {
            "use": "official",
            "system": "https://standards.digital.health.nz/id/nhi",
            "value": "WER4568"
          },
          {
            "use": "old",
            "system": "https://standards.digital.health.nz/id/nhi",
            "value": "ABC1234"
          }
        ],
        "deceasedBoolean": false,
        "gender": "male",
        "birthDate": "1989-12-12",
        "managingOrganization": {
          "reference": "Organization/cmdhb",
          "display": "Counties-Manukau DHB"
        },
        "generalPractitioner": [
          {
            "reference": "PractitionerRole/gp-pracrole1",
            "display": "Dr Marcus Welby"
          }
        ],
        "communication": [
          {
            "language": {
              "coding": [
                {
                  "system": "urn:ietf:bcp:47",
                  "code": "fr",
                  "display": "French"
                }
              ]
            }
          }
        ],
        "contact": [
          {
            "relationship": [
              {
                "coding": [
                  {
                    "code": "N",
                    "system": "http://terminology.hl7.org/CodeSystem/v2-0131",
                    "display": "Next-of-Kin"
                  }
                ]
              }
            ],
            "name": {
              "text": "Mr John Watson"
            },
            "telecom": [
              {
                "system": "phone",
                "value": "+64 9 000 0001"
              }
            ],
            "address": {
              "line": [
                "23 Thule St"
              ]
            },
            "gender": "male"
          }
        ]
      },
      "fullUrl": "http://clinfhir.com/Patient/patient2"
    },
    {
      "resource": {
        "resourceType": "PractitionerRole",
        "id": "gp-pracrole1",
        "meta": {
          "profile": [
            "http://hl7.org.nz/fhir/StructureDefinition/NrPractitionerRole"
          ]
        },
        "text": {
          "div": "<div xmlns=\"http://www.w3.org/1999/xhtml\">John Doe</div>",
          "status": "additional"
        },
        "practitioner": {
          "reference": "Practitioner/drwelby"
        },
        "location": [
          {
            "reference": "Location/ghc"
          }
        ]
      },
      "fullUrl": "http://clinfhir.com/PractitionerRole/gp-pracrole1"
    },
    {
      "resource": {
        "resourceType": "Location",
        "id": "ghc",
        "meta": {
          "profile": [
            "http://hl7.org.nz/fhir/StructureDefinition/NrLocation"
          ]
        },
        "extension": [
          {
            "extension": [
              {
                "url": "organization",
                "valueIdentifier": {
                  "system": "https://standards.digital.health.nz/ns/hpi-organisation-id",
                  "value": "healthlinkOrgId"
                }
              },
              {
                "url": "value",
                "valueString": "myHLEDIumber"
              }
            ],
            "url": "http://hl7.org.nz/fhir/StructureDefinition/edi-number"
          }
        ],
        "name": "Good Health Medical Centre"
      },
      "fullUrl": "http://clinfhir.com/Location/ghc"
    },
    {
      "resource": {
        "resourceType": "Practitioner",
        "id": "drwelby",
        "meta": {
          "profile": [
            "http://hl7.org.nz/fhir/StructureDefinition/NrPractitioner"
          ]
        },
        "name": [
          {
            "text": "Dr Marcus Welby"
          }
        ],
        "identifier": [
          {
            "system": "https://standards.digital.health.nz/ns/hpi-provider-id",
            "value": "cpn-1",
            "use": "official"
          }
        ]
      },
      "fullUrl": "http://clinfhir.com/Practitioner/drwelby"
    }
  ]
}
